 C10H8O4 Density=1.4 Thickness=2.25 microns
 Photon Energy (eV), Transmission
    890.00      0.28452    
    891.44      0.28603    
    892.88      0.28754    
    894.32      0.28905    
    895.76      0.29055    
    897.20      0.29206    
    898.64      0.29356    
    900.08      0.29507    
    901.52      0.29657    
    902.96      0.29807    
    904.40      0.29957    
    905.84      0.30107    
    907.28      0.30257    
    908.72      0.30406    
    910.16      0.30556    
    911.60      0.30705    
    913.04      0.30854    
    914.48      0.31004    
    915.92      0.31153    
    917.36      0.31301    
    918.80      0.31450    
    920.24      0.31599    
    921.68      0.31747    
    923.12      0.31897    
    924.56      0.32049    
    926.00      0.32201    
    927.44      0.32353    
    928.88      0.32505    
    930.32      0.32656    
    931.76      0.32807    
    933.20      0.32959    
    934.64      0.33110    
    936.08      0.33261    
    937.52      0.33411    
    938.96      0.33563    
    940.40      0.33714    
    941.84      0.33865    
    943.28      0.34016    
    944.72      0.34167    
    946.16      0.34317    
    947.60      0.34468    
    949.04      0.34618    
    950.48      0.34768    
    951.92      0.34918    
    953.36      0.35068    
    954.80      0.35218    
    956.24      0.35368    
    957.68      0.35518    
    959.12      0.35668    
    960.56      0.35817    
    962.00      0.35966    
    963.44      0.36116    
    964.88      0.36264    
    966.32      0.36413    
    967.76      0.36561    
    969.20      0.36710    
    970.64      0.36858    
    972.08      0.37005    
    973.52      0.37153    
    974.96      0.37300    
    976.40      0.37447    
    977.84      0.37594    
    979.28      0.37741    
    980.72      0.37887    
    982.16      0.38034    
    983.60      0.38180    
    985.04      0.38325    
    986.48      0.38471    
    987.92      0.38616    
    989.36      0.38761    
    990.80      0.38905    
    992.24      0.39050    
    993.68      0.39194    
    995.12      0.39338    
    996.56      0.39482    
    998.00      0.39625    
    999.44      0.39768    
    1000.9      0.39911    
    1002.3      0.40054    
    1003.8      0.40196    
    1005.2      0.40338    
    1006.6      0.40480    
    1008.1      0.40621    
    1009.5      0.40763    
    1011.0      0.40904    
    1012.4      0.41044    
    1013.8      0.41185    
    1015.3      0.41325    
    1016.7      0.41465    
    1018.2      0.41603    
    1019.6      0.41742    
    1021.0      0.41880    
    1022.5      0.42018    
    1023.9      0.42156    
    1025.4      0.42293    
    1026.8      0.42430    
    1028.2      0.42567    
    1029.7      0.42704    
    1031.1      0.42840    
    1032.6      0.42977    
    1034.0      0.43114    
    1035.4      0.43251    
    1036.9      0.43387    
    1038.3      0.43523    
    1039.8      0.43659    
    1041.2      0.43795    
    1042.6      0.43930    
    1044.1      0.44066    
    1045.5      0.44201    
    1047.0      0.44335    
    1048.4      0.44469    
    1049.8      0.44604    
    1051.3      0.44739    
    1052.7      0.44874    
    1054.2      0.45009    
    1055.6      0.45143    
    1057.0      0.45277    
    1058.5      0.45411    
    1059.9      0.45544    
    1061.4      0.45677    
    1062.8      0.45810    
    1064.2      0.45942    
    1065.7      0.46075    
    1067.1      0.46207    
    1068.6      0.46338    
    1070.0      0.46470    
    1071.4      0.46601    
    1072.9      0.46731    
    1074.3      0.46862    
    1075.8      0.46992    
    1077.2      0.47122    
    1078.6      0.47252    
    1080.1      0.47381    
    1081.5      0.47510    
    1083.0      0.47639    
    1084.4      0.47767    
    1085.8      0.47895    
    1087.3      0.48023    
    1088.7      0.48151    
    1090.2      0.48278    
    1091.6      0.48405    
    1093.0      0.48532    
    1094.5      0.48658    
    1095.9      0.48784    
    1097.4      0.48910    
    1098.8      0.49036    
    1100.2      0.49161    
    1101.7      0.49286    
    1103.1      0.49411    
    1104.6      0.49535    
    1106.0      0.49659    
    1107.4      0.49783    
    1108.9      0.49906    
    1110.3      0.50030    
    1111.8      0.50153    
    1113.2      0.50275    
    1114.6      0.50398    
    1116.1      0.50520    
    1117.5      0.50642    
    1119.0      0.50763    
    1120.4      0.50884    
    1121.8      0.51005    
    1123.3      0.51125    
    1124.7      0.51246    
    1126.2      0.51366    
    1127.6      0.51485    
    1129.0      0.51604    
    1130.5      0.51724    
    1131.9      0.51842    
    1133.4      0.51961    
    1134.8      0.52079    
    1136.2      0.52197    
    1137.7      0.52314    
    1139.1      0.52432    
    1140.6      0.52549    
    1142.0      0.52665    
    1143.4      0.52782    
    1144.9      0.52898    
    1146.3      0.53014    
    1147.8      0.53129    
    1149.2      0.53244    
    1150.6      0.53359    
    1152.1      0.53474    
    1153.5      0.53588    
    1155.0      0.53702    
    1156.4      0.53816    
    1157.8      0.53930    
    1159.3      0.54043    
    1160.7      0.54156    
    1162.2      0.54269    
    1163.6      0.54381    
    1165.0      0.54493    
    1166.5      0.54605    
    1167.9      0.54716    
    1169.4      0.54828    
    1170.8      0.54939    
    1172.2      0.55049    
    1173.7      0.55160    
    1175.1      0.55270    
    1176.6      0.55379    
    1178.0      0.55489    
    1179.4      0.55598    
    1180.9      0.55707    
    1182.3      0.55816    
    1183.8      0.55924    
    1185.2      0.56032    
    1186.6      0.56140    
    1188.1      0.56248    
    1189.5      0.56355    
    1191.0      0.56462    
    1192.4      0.56568    
    1193.8      0.56675    
    1195.3      0.56781    
    1196.7      0.56887    
    1198.2      0.56992    
    1199.6      0.57098    
    1201.0      0.57203    
    1202.5      0.57307    
    1203.9      0.57412    
    1205.4      0.57516    
    1206.8      0.57620    
    1208.2      0.57723    
    1209.7      0.57827    
    1211.1      0.57930    
    1212.6      0.58033    
    1214.0      0.58135    
    1215.4      0.58237    
    1216.9      0.58339    
    1218.3      0.58441    
    1219.8      0.58543    
    1221.2      0.58644    
    1222.6      0.58745    
    1224.1      0.58845    
    1225.5      0.58946    
    1227.0      0.59046    
    1228.4      0.59146    
    1229.8      0.59245    
    1231.3      0.59344    
    1232.7      0.59444    
    1234.2      0.59543    
    1235.6      0.59642    
    1237.0      0.59741    
    1238.5      0.59839    
    1239.9      0.59937    
    1241.4      0.60035    
    1242.8      0.60133    
    1244.2      0.60230    
    1245.7      0.60327    
    1247.1      0.60424    
    1248.6      0.60521    
    1250.0      0.60617    
    1251.4      0.60713    
    1252.9      0.60809    
    1254.3      0.60905    
    1255.8      0.61001    
    1257.2      0.61097    
    1258.6      0.61192    
    1260.1      0.61287    
    1261.5      0.61382    
    1263.0      0.61476    
    1264.4      0.61570    
    1265.8      0.61664    
    1267.3      0.61758    
    1268.7      0.61851    
    1270.2      0.61944    
    1271.6      0.62037    
    1273.0      0.62131    
    1274.5      0.62224    
    1275.9      0.62317    
    1277.4      0.62409    
    1278.8      0.62501    
    1280.2      0.62593    
    1281.7      0.62685    
    1283.1      0.62777    
    1284.6      0.62868    
    1286.0      0.62959    
    1287.4      0.63050    
    1288.9      0.63140    
    1290.3      0.63231    
    1291.8      0.63321    
    1293.2      0.63410    
    1294.6      0.63500    
    1296.1      0.63589    
    1297.5      0.63678    
    1299.0      0.63767    
    1300.4      0.63855    
    1301.8      0.63944    
    1303.3      0.64032    
    1304.7      0.64119    
    1306.2      0.64207    
    1307.6      0.64294    
    1309.0      0.64381    
    1310.5      0.64468    
    1311.9      0.64554    
    1313.4      0.64641    
    1314.8      0.64727    
    1316.2      0.64812    
    1317.7      0.64898    
    1319.1      0.64983    
    1320.6      0.65068    
    1322.0      0.65153    
    1323.4      0.65238    
    1324.9      0.65322    
    1326.3      0.65406    
    1327.8      0.65490    
    1329.2      0.65574    
    1330.6      0.65657    
    1332.1      0.65740    
    1333.5      0.65823    
    1335.0      0.65906    
    1336.4      0.65988    
    1337.8      0.66070    
    1339.3      0.66153    
    1340.7      0.66234    
    1342.2      0.66316    
    1343.6      0.66397    
    1345.0      0.66478    
    1346.5      0.66559    
    1347.9      0.66640    
    1349.4      0.66720    
    1350.8      0.66800    
    1352.2      0.66880    
    1353.7      0.66960    
    1355.1      0.67039    
    1356.6      0.67119    
    1358.0      0.67198    
    1359.4      0.67276    
    1360.9      0.67355    
    1362.3      0.67433    
    1363.8      0.67511    
    1365.2      0.67589    
    1366.6      0.67667    
    1368.1      0.67744    
    1369.5      0.67822    
    1371.0      0.67899    
    1372.4      0.67975    
    1373.8      0.68052    
    1375.3      0.68128    
    1376.7      0.68204    
    1378.2      0.68280    
    1379.6      0.68356    
    1381.0      0.68432    
    1382.5      0.68507    
    1383.9      0.68582    
    1385.4      0.68657    
    1386.8      0.68731    
    1388.2      0.68806    
    1389.7      0.68880    
    1391.1      0.68954    
    1392.6      0.69028    
    1394.0      0.69101    
    1395.4      0.69175    
    1396.9      0.69248    
    1398.3      0.69321    
    1399.8      0.69394    
    1401.2      0.69466    
    1402.6      0.69539    
    1404.1      0.69611    
    1405.5      0.69683    
    1407.0      0.69754    
    1408.4      0.69826    
    1409.8      0.69897    
    1411.3      0.69968    
    1412.7      0.70039    
    1414.2      0.70110    
    1415.6      0.70181    
    1417.0      0.70251    
    1418.5      0.70321    
    1419.9      0.70391    
    1421.4      0.70461    
    1422.8      0.70530    
    1424.2      0.70600    
    1425.7      0.70669    
    1427.1      0.70738    
    1428.6      0.70806    
    1430.0      0.70875    
    1431.4      0.70943    
    1432.9      0.71011    
    1434.3      0.71079    
    1435.8      0.71147    
    1437.2      0.71215    
    1438.6      0.71282    
    1440.1      0.71349    
    1441.5      0.71416    
    1443.0      0.71483    
    1444.4      0.71549    
    1445.8      0.71616    
    1447.3      0.71682    
    1448.7      0.71748    
    1450.2      0.71814    
    1451.6      0.71880    
    1453.0      0.71946    
    1454.5      0.72011    
    1455.9      0.72076    
    1457.4      0.72141    
    1458.8      0.72206    
    1460.2      0.72271    
    1461.7      0.72335    
    1463.1      0.72399    
    1464.6      0.72463    
    1466.0      0.72527    
    1467.4      0.72591    
    1468.9      0.72655    
    1470.3      0.72718    
    1471.8      0.72781    
    1473.2      0.72845    
    1474.6      0.72908    
    1476.1      0.72970    
    1477.5      0.73033    
    1479.0      0.73096    
    1480.4      0.73158    
    1481.8      0.73220    
    1483.3      0.73282    
    1484.7      0.73344    
    1486.2      0.73405    
    1487.6      0.73467    
    1489.0      0.73528    
    1490.5      0.73589    
    1491.9      0.73650    
    1493.4      0.73711    
    1494.8      0.73772    
    1496.2      0.73833    
    1497.7      0.73893    
    1499.1      0.73954    
    1500.6      0.74014    
    1502.0      0.74075    
    1503.4      0.74135    
    1504.9      0.74195    
    1506.3      0.74254    
    1507.8      0.74314    
    1509.2      0.74373    
    1510.6      0.74433    
    1512.1      0.74492    
    1513.5      0.74551    
    1515.0      0.74609    
    1516.4      0.74668    
    1517.8      0.74726    
    1519.3      0.74785    
    1520.7      0.74843    
    1522.2      0.74901    
    1523.6      0.74958    
    1525.0      0.75016    
    1526.5      0.75074    
    1527.9      0.75131    
    1529.4      0.75188    
    1530.8      0.75245    
    1532.2      0.75302    
    1533.7      0.75358    
    1535.1      0.75415    
    1536.6      0.75471    
    1538.0      0.75527    
    1539.4      0.75583    
    1540.9      0.75639    
    1542.3      0.75695    
    1543.8      0.75750    
    1545.2      0.75806    
    1546.6      0.75861    
    1548.1      0.75916    
    1549.5      0.75971    
    1551.0      0.76026    
    1552.4      0.76080    
    1553.8      0.76135    
    1555.3      0.76189    
    1556.7      0.76243    
    1558.2      0.76297    
    1559.6      0.76351    
    1561.0      0.76404    
    1562.5      0.76458    
    1563.9      0.76511    
    1565.4      0.76565    
    1566.8      0.76618    
    1568.2      0.76671    
    1569.7      0.76723    
    1571.1      0.76776    
    1572.6      0.76828    
    1574.0      0.76881    
    1575.4      0.76933    
    1576.9      0.76985    
    1578.3      0.77037    
    1579.8      0.77089    
    1581.2      0.77140    
    1582.6      0.77192    
    1584.1      0.77243    
    1585.5      0.77294    
    1587.0      0.77345    
    1588.4      0.77396    
    1589.8      0.77447    
    1591.3      0.77498    
    1592.7      0.77548    
    1594.2      0.77598    
    1595.6      0.77649    
    1597.0      0.77699    
    1598.5      0.77748    
    1599.9      0.77798    
    1601.4      0.77848    
    1602.8      0.77897    
    1604.2      0.77947    
    1605.7      0.77996    
    1607.1      0.78045    
    1608.6      0.78094    
    1610.0      0.78143    
